index,header,gyrX,gyrY,gyrZ,accX,accY,accZ
0,-15702,-21590,-21522,-19049,-16240,30498,-15888
1,-30572,-15702,-21590,-21531,-20841,-16250,-15326
2,-16079,-20332,-15702,-21590,-21686,-20073,-16283
3,1827,-16079,-9836,-15702,-21590,-21643,-31337
4,-16302,22819,-16034,405,-15702,-21590,-21724
5,26775,-16329,-26589,-16108,10133,-15702,-21590
6,-21701,23191,-16161,-9949,-15994,20117,-15702
7,-21590,-21603,12695,-16327,4900,-16079,30101
8,-15702,-21590,-21607,2199,-16280,18980,-15976
9,-25195,-15702,-21590,-21736,-9834,-16254,-31196
10,-16037,-14187,-15702,-21590,-21626,-21866,-16193
11,-15580,-16112,-3435,-15702,-21590,-21628,-24938
12,-16211,-732,-15920,7318,-15702,-21590,-21567
13,-31850,-16183,17701,-16020,17814,-15702,-21590
14,-21669,30614,-16288,-28123,-15995,28566,-15702
15,-21590,-21579,24214,-16363,-8667,-15984,-26218
16,-15702,-21590,-21664,17814,-16148,10022,-15913
17,-15722,-15702,-21590,-21693,15766,-16214,27942
18,-15971,-4970,-15702,-21590,-21675,17558,-16180
19,-20698,-15916,5783,-15702,-21590,-21732,13206
20,-16221,-474,-16027,16791,-15702,-21590,-21706
21,1430,-16278,17703,-16009,27287,-15702,-21590
22,-21544,-4459,-16363,-29657,-16111,-28009,-15702
23,-21590,-21679,-17003,-16142,-9689,-15935,-17513
24,-15702,-21590,-21720,-26987,-16366,12328,-15901
25,-7273,-15702,-21590,-21741,-29803,-16325,31272
26,-15965,3224,-15702,-21590,-21592,28309,-16383
27,-14040,-15890,13464,-15702,-21590,-21548,21141
28,-16132,6697,-15937,23704,-15702,-21590,-21672
29,17557,-16223,28457,-15877,-31336,-15702,-21590
30,-21590,3477,-16354,-15319,-16072,-20584,-15702
31,-21590,-21735,-8556,-16242,7722,-16059,-9576
32,-15702,-21590,-21707,-14956,-16260,24618,-15887
33,1177,-15702,-21590,-21559,-22124,-16283,-20438
34,-15964,12185,-15702,-21590,-21693,-32620,-16346
35,4395,-16031,22425,-15702,-21590,-21742,28308
36,-16195,18219,-15930,-32359,-15702,-21590,-21588
37,30868,-16166,-28373,-15918,-21095,-15702,-21590
38,-21591,30356,-16348,-3541,-15909,-10087,-15702
39,-21590,-21519,24980,-16267,19500,-15874,666
40,-15702,-21590,-21536,16788,-16316,-25556,-16016
41,11674,-15702,-21590,-21610,14484,-16345,-3796
42,-16093,22938,-15702,-21590,-21670,5012,-16190
43,14637,-15943,-31590,-15702,-21590,-21506,-6509
44,-16130,-27091,-16054,-21094,-15702,-21590,-21699
45,-15469,-16209,-7379,-15891,-10342,-15702,-21590
46,-21638,-21613,-16209,10030,-16048,155,-15702
47,-21590,-21650,-25197,-16224,31534,-16019,10651
48,-15702,-21590,-21597,-29293,-16315,-11218,-15953
49,21659,-15702,-21590,-21670,31891,-16161,10543
50,-16096,-32613,-15702,-21590,-21568,20883,-16342
51,29487,-15961,-22117,-15702,-21590,-21520,15507
52,-16322,-19665,-16073,-11109,-15702,-21590,-21683
53,5267,-16263,2352,-15982,-613,-15702,-21590
54,-21550,-1134,-16331,22832,-16058,10652,-15702
55,-21590,-21716,147,-16305,-24016,-16051,21916
56,-15702,-21590,-21563,-3694,-16176,-6608,-15898
57,-32356,-15702,-21590,-21728,-13166,-16227,13873
58,-16096,-21092,-15702,-21590,-21694,-22382,-16269
59,-30415,-15985,-10340,-15702,-21590,-21628,-24430
60,-16248,-13519,-16096,669,-15702,-21590,-21707
61,28562,-16233,2610,-15885,11421,-15702,-21590
62,-21624,20626,-16235,19506,-16021,22429,-15702
63,-21590,-21656,8850,-16312,-26574,-16104,-31331
64,-15702,-21590,-21693,6802,-16314,-3278,-16099
65,-19555,-15702,-21590,-21524,3474,-16134,13107
66,-15919,-7779,-15702,-21590,-21699,-1135,-16250
67,30515,-15920,3998,-15702,-21590,-21717,-2415
68,-16347,-13517,-16060,15518,-15702,-21590,-21729
69,-10863,-16340,10036,-15875,26270,-15702,-21590
70,-21726,-11375,-16178,32308,-16112,-27234,-15702
71,-21590,-21637,-24687,-16148,-12748,-15949,-15714
72,-15702,-21590,-21691,-24943,-16136,1589,-16101
73,-4962,-15702,-21590,-21754,32657,-16279,14901
74,-15935,5791,-15702,-21590,-21725,28049,-16268
75,32565,-15998,17567,-15702,-21590,-21752,21905
76,-16313,-16587,-16050,28831,-15702,-21590,-21587
77,11921,-16162,4406,-16049,-25697,-15702,-21590
78,-21643,2705,-16321,24630,-16001,-15201,-15702
79,-21590,-21608,3217,-16259,-22986,-16128,-3425
80,-15702,-21590,-21596,5265,-16160,-1482,-16027
81,7328,-15702,-21590,-21741,-13168,-16208,20535
82,-16066,18848,-15702,-21590,-21631,-11632,-16351
83,-26057,-15979,29856,-15702,-21590,-21706,-14704
84,-16286,-6857,-16044,-24160,-15702,-21590,-21560
85,-22384,-16207,12600,-15902,-13152,-15702,-21590
86,-21623,-26992,-16312,31800,-16089,-1632,-15702
87,-21590,-21637,-25968,-16179,-17096,-15997,9633
88,-15702,-21590,-21733,-27248,-16218,3641,-16017
89,21153,-15702,-21590,-21556,25232,-16170,23353
90,-16127,-32607,-15702,-21590,-21730,13968,-16149
91,-24775,-16025,-20831,-15702,-21590,-21550,3984
92,-16185,-3527,-16004,-9567,-15702,-21590,-21668
93,-5489,-16245,14138,-15993,1954,-15702,-21590
94,-21650,-17265,-16208,-31174,-16102,13730,-15702
95,-21590,-21506,-28529,-16353,-12742,-16108,25506
96,-15702,-21590,-21536,26511,-16169,7739,-15906
97,-28766,-15702,-21590,-21742,3983,-16349,28987
98,-15913,-18014,-15702,-21590,-21515,-3698,-16276
99,-18373,-16036,-6750,-15702,-21590,-21685,-8306
100,-16227,-453,-15930,4771,-15702,-21590,-21578
101,-14706,-16170,21820,-15938,16035,-15702,-21590
102,-21519,-26738,-16271,-19652,-16061,27043,-15702
103,-21590,-21548,25742,-16149,3389,-16127,-26973
104,-15702,-21590,-21751,10126,-16136,22589,-16004
105,-15197,-15702,-21590,-21588,-5747,-16156,-24771
106,-16123,-3421,-15702,-21590,-21514,-12403,-16306
107,-4035,-15892,7588,-15702,-21590,-21607,-17267
108,-16144,19006,-16045,18852,-15702,-21590,-21536
109,-20595,-16376,-22722,-15924,30116,-15702,-21590
110,-21683,-30579,-16295,3647,-16054,-23900,-15702
111,-21590,-21724,25741,-16316,22335,-16064,-12380
112,-15702,-21590,-21543,17549,-16319,-21697,-15920
113,-860,-15702,-21590,-21749,6797,-16195,-7105
114,-15990,10661,-15702,-21590,-21516,2701,-16367
115,11840,-15881,22437,-15702,-21590,-21658,-12148
116,-16142,32576,-15954,-31323,-15702,-21590,-21599
117,-13172,-16339,-12224,-15981,-19803,-15702,-21590
118,-21535,-24436,-16306,7489,-16106,-7771,-15702
119,-21590,-21652,-32372,-16157,20801,-16031,4262
120,-15702,-21590,-21620,24972,-16307,-27839,-16033
121,16038,-15702,-21590,-21555,10124,-16187,-8127
122,-16097,28070,-15702,-21590,-21759,2188,-16136
123,12098,-15902,-26202,-15702,-21590,-21628,-18549
124,-16271,32322,-16049,-14170,-15702,-21590,-21727
125,24459,-16138,-13246,-15914,-2394,-15702,-21590
126,-21596,13195,-16135,8515,-15933,9383,-15702
127,-21590,-21616,-374,-16220,30019,-15895,21159
128,-15702,-21590,-21675,-15222,-16381,-14269,-15998
129,-32345,-15702,-21590,-21590,-22902,-16252,2884
130,-16118,-20825,-15702,-21590,-21757,29578,-16188
131,26180,-15877,-9305,-15702,-21590,-21599,17802
132,-16307,-13244,-15947,2728,-15702,-21590,-21505
133,9866,-16281,4165,-15927,14248,-15702,-21590
134,-21526,-8567,-16132,26693,-16044,26280,-15702
135,-21590,-21738,-10615,-16219,-16315,-16008,-27736
136,-15702,-21590,-21602,-9591,-16274,2118,-15955
137,-15448,-15702,-21590,-21731,-21367,-16374,18502
138,-16072,-3160,-15702,-21590,-21735,-31607,-16209
139,-29114,-16104,8361,-15702,-21590,-21668,19081
140,-16172,-8634,-16125,20393,-15702,-21590,-21722
141,10633,-16191,4423,-15981,32169,-15702,-21590
142,-21628,-1656,-16346,23623,-16009,-21591,-15702
143,-21590,-21595,-7288,-16376,-22201,-16069,-9559
144,-15702,-21590,-21650,32648,-16160,-1465,-15922
145,2474,-15702,-21590,-21518,23176,-16318,17992
146,-15884,15018,-15702,-21590,-21532,13960,-16186
147,-27576,-16011,27050,-15702,-21590,-21559,-2425
148,-16271,-8120,-16006,-25942,-15702,-21590,-21701
149,-19065,-16248,8009,-15906,-13654,-15702,-21590
150,-21530,31879,-16173,27977,-16085,-1622,-15702
151,-21590,-21624,10887,-16364,-17079,-15875,10411
152,-15702,-21590,-21618,-16506,-16236,5450,-15994
153,22699,-15702,-21590,-21627,29062,-16302,27210
154,-16091,-30293,-15702,-21590,-21716,20870,-16195
155,-21430,-16037,-17493,-15702,-21590,-21622,4742
156,-16139,2891,-15881,-5717,-15702,-21590,-21744
157,-7803,-16219,27467,-16066,6316,-15702,-21590
158,-21525,-16763,-16143,-17077,-15896,18348,-15702
159,-21590,-21640,25733,-16245,6476,-15908,30892
160,-15702,-21590,-21546,5765,-16287,24908,-16014
161,-22612,-15702,-21590,-21743,-3196,-16237,-23476
162,-16073,-10580,-15702,-21590,-21658,-13948,-16340
163,-180,-15879,1965,-15702,-21590,-21687,-24956
164,-16179,20301,-16069,14765,-15702,-21590,-21700
165,20612,-16313,-21171,-15982,27053,-15702,-21590
166,-21611,4740,-16305,2638,-15967,-26451,-15702
167,-21590,-21615,-8061,-16201,25678,-16002,-14419
168,-15702,-21590,-21755,-13437,-16137,-20146,-15878
169,-1619,-15702,-21590,-21657,26243,-16367,-434
170,-16074,11182,-15702,-21590,-21691,15235,-16158
171,16719,-15967,23470,-15702,-21590,-21571,4739
172,-16273,-30897,-15980,-30034,-15702,-21590,-21571
173,-14462,-16268,-12209,-16116,-18002,-15702,-21590
174,-21535,-27774,-16271,11600,-15911,-5970,-15702
175,-21590,-21631,17794,-16300,32336,-15895,6319
176,-15702,-21590,-21548,642,-16188,-12464,-15921
177,18351,-15702,-21590,-21602,-15231,-16226,10833
178,-16017,30639,-15702,-21590,-21649,-24703,-16233
179,-30639,-15954,-22353,-15702,-21590,-21548,23681
180,-16149,-14511,-15880,-9809,-15702,-21590,-21641
181,5249,-16168,3922,-16065,2736,-15702,-21590
182,-21637,-12160,-16300,21074,-16097,15024,-15702
183,-21590,-21756,-20864,-16295,-22446,-16040,27056
184,-15702,-21590,-21507,-30848,-16195,-4014,-16116
185,-25936,-15702,-21590,-21577,30848,-16234,13651
186,-15972,-13648,-15702,-21590,-21698,17536,-16321
187,-28333,-15929,-1616,-15702,-21590,-21655,-2433
188,-16169,-6573,-15998,11441,-15702,-21590,-21698
189,31103,-16228,14932,-16114,23985,-15702,-21590
190,-21720,-8834,-16195,-24492,-16001,-29263,-15702
191,-21590,-21644,17534,-16328,-940,-15933,-16719
192,-15702,-21590,-21674,-12675,-16248,21845,-15925
193,-3919,-15702,-21590,-21543,13693,-16251,-20139
194,-16051,8626,-15702,-21590,-21754,-24708,-16380
195,1622,-15975,21170,-15702,-21590,-21593,-1925
196,-16306,21590,-15948,-31822,-15702,-21590,-21702
197,30843,-16166,-23722,-16097,-18766,-15702,-21590
198,-21511,-8070,-16139,-4266,-15989,-6222,-15702
199,-21590,-21760,8314,-16142,14935,-15891,6067
200,-15702,-21590,-21612,-28807,-16333,-31145,-16114
201,19379,-15702,-21590,-21647,-1928,-16382,-7593
202,-15995,31923,-15702,-21590,-21584,24440,-16170
203,13656,-16099,-20301,-15702,-21590,-21516,-10633
204,-16303,-30632,-16066,-7757,-15702,-21590,-21619
205,6775,-16226,-17064,-15908,5044,-15702,-21590
206,-21692,31862,-16253,-2472,-15918,17844,-15702
207,-21590,-21627,-14219,-16179,18777,-15939,31412
208,-15702,-21590,-21639,3189,-16295,-24999,-16036
209,-21580,-15702,-21590,-21542,22900,-16142,-5287
210,-16127,-8524,-15702,-21590,-21526,28531,-16131
211,15194,-15881,4533,-15702,-21590,-21621,-4238
212,-16282,-29606,-16051,17589,-15702,-21590,-21648
213,-24206,-16181,-11942,-16086,30645,-15702,-21590
214,-21544,11890,-16185,11611,-15942,-21835,-15702
215,-21590,-21588,29041,-16195,29531,-16054,-8523
216,-15702,-21590,-21601,-2704,-16335,-20133,-16001
217,4790,-15702,-21590,-21589,15984,-16132,2396
218,-16056,17846,-15702,-21590,-21569,-14737,-16225
219,28764,-16047,30646,-15702,-21590,-21628,11887
220,-16315,-11172,-15917,-22346,-15702,-21590,-21527
221,-22930,-16338,13661,-15997,-9290,-15702,-21590
222,-21516,25198,-16161,31837,-16095,4023,-15702
223,-21590,-21604,-7571,-16295,-9123,-16116,16567
224,-15702,-21590,-21699,20333,-16143,16478,-15967
225,29879,-15702,-21590,-21569,23148,-16131,-21666
226,-16094,-22345,-15702,-21590,-21689,-24469,-16230
227,2143,-16074,-9289,-15702,-21590,-21636,2923
228,-16357,25183,-16008,3768,-15702,-21590,-21611
229,-30870,-16135,-18849,-15974,16824,-15702,-21590
230,-21529,-3223,-16309,352,-16036,29880,-15702
231,-21590,-21719,-30103,-16199,18016,-15937,-22344
232,-15702,-21590,-21549,-12952,-16225,-24480,-16087
233,-8264,-15702,-21590,-21644,17256,-16131,-4768
234,-16039,4537,-15702,-21590,-21653,-27801,-16307
235,13665,-15939,17593,-15702,-21590,-21615,15975
236,-16328,-32671,-16020,31161,-15702,-21590,-21702
237,-9626,-16213,-15007,-16035,-21319,-15702,-21590
238,-21655,16742,-16224,5218,-16068,-7751,-15702
239,-21590,-21688,-29595,-16353,27746,-15963,5562
240,-15702,-21590,-21724,-6556,-16368,-19870,-16061
241,19386,-15702,-21590,-21533,22884,-16188,4195
242,-15882,-32582,-15702,-21590,-21708,100,-16226
243,30051,-15915,-19270,-15702,-21590,-21618,25187
244,-16135,-12189,-16127,-4934,-15702,-21590,-21572
245,-4254,-16206,11108,-16098,7867,-15702,-21590
246,-21555,18530,-16362,-31644,-15940,20667,-15702
247,-21590,-21602,-16031,-16341,-9884,-15951,-32325
248,-15702,-21590,-21549,5729,-16301,16485,-16108
249,-19269,-15702,-21590,-21745,28000,-16187,-20379
250,-15886,-6213,-15702,-21590,-21691,608,-16356
251,1894,-15980,7356,-15702,-21590,-21745,22623
252,-16187,23654,-16071,20412,-15702,-21590,-21723
253,-13986,-16142,-24730,-16070,-31044,-15702,-21590
254,-21722,12126,-16319,-5018,-16126,-17476,-15702
255,-21590,-21567,-31907,-16174,16999,-15892,-4932
256,-15702,-21590,-21696,-3236,-16310,-27545,-15980
257,8893,-15702,-21590,-21661,15196,-16148,-6297
258,-16087,21949,-15702,-21590,-21580,-4261,-16321
259,15464,-16014,-30019,-15702,-21590,-21569,13403
260,-16318,-32408,-16071,-16195,-15702,-21590,-21713
261,30554,-16247,-14488,-16038,-2115,-15702,-21590
262,-21635,28505,-16217,7785,-16015,11454,-15702
263,-21590,-21701,-20136,-16139,29545,-15988,25022
264,-15702,-21590,-21540,6744,-16364,-17559,-15935
265,-26434,-15702,-21590,-21604,6487,-16254,2410
266,-15965,-12610,-15702,-21590,-21516,31830,-16144
267,24938,-15921,1727,-15702,-21590,-21541,-6571
268,-16237,-21910,-15911,16063,-15702,-21590,-21603
269,23893,-16163,-2454,-16083,30399,-15702,-21590
270,-21660,-10924,-16169,13931,-16048,-21825,-15702
271,-21590,-21718,13908,-16263,-30869,-15968,-8513
272,-15702,-21590,-21720,18515,-16267,-9621,-16008
273,5312,-15702,-21590,-21685,25682,-16377,10348
274,-15967,19392,-15702,-21590,-21625,-5039,-16325
275,28524,-16081,-31808,-15702,-21590,-21635,-4016
276,-16299,-19348,-16105,-17984,-15702,-21590,-21707
277,12880,-16191,1133,-15943,-4416,-15702,-21590
278,-21594,28495,-16185,20845,-15909,9153,-15702
279,-21590,-21705,-23474,-16357,-21139,-16024,23489
280,-15702,-21590,-21533,-9651,-16279,-3987,-15997
281,-27967,-15702,-21590,-21536,14157,-16292,18286
282,-15927,-14399,-15702,-21590,-21694,-24244,-16193
283,-26770,-16030,-831,-15702,-21590,-21600,-6837
284,-16335,-6034,-15931,12738,-15702,-21590,-21589
285,10571,-16192,13423,-16036,26562,-15702,-21590
286,-21680,29770,-16326,31343,-15875,-24638,-15702
287,-21590,-21686,-21431,-16171,-15505,-16000,-10814
288,-15702,-21590,-21617,-696,-16145,112,-16027
289,3011,-15702,-21590,-21642,19528,-16333,25200
290,-15881,16835,-15702,-21590,-21663,21319,-16331
291,-16272,-15977,30915,-15702,-21590,-21566,-28858
292,-16180,5233,-16009,-20285,-15702,-21590,-21748
293,-12475,-16191,25969,-16011,-5693,-15702,-21590
294,-21633,21573,-16230,-21647,-15881,8644,-15702
295,-21590,-21636,-16828,-16364,-2959,-15910,22212
296,-15702,-21590,-21702,16452,-16378,19314,-15949
297,-28988,-15702,-21590,-21537,28995,-16344,-24718
298,-15953,-14396,-15702,-21590,-21540,-21694,-16235
299,-7566,-16017,-316,-15702,-21590,-21543,-2239
300,-16343,8051,-15987,14277,-15702,-21590,-21519
301,16449,-16328,25715,-16044,28357,-15702,-21590
302,-21756,-8384,-16139,-20621,-16106,-23099,-15702
303,-21590,-21603,19264,-16289,-3725,-16087,-8507
304,-15702,-21590,-21558,-24257,-16170,16756,-16085
305,5318,-15702,-21590,-21643,-7106,-16308,-28044
306,-16049,19910,-15702,-21590,-21671,3902,-16344
307,-8332,-16021,-31290,-15702,-21590,-21536,11069
308,-16352,13941,-15889,-17210,-15702,-21590,-21739
309,24636,-16159,-31627,-16082,-3386,-15702,-21590
310,-21745,-22725,-16271,-11915,-16089,10951,-15702
311,-21590,-21701,-9414,-16212,6006,-15993,24775
312,-15702,-21590,-21706,3642,-16138,27510,-16075
313,-26169,-15702,-21590,-21753,-4296,-16236,-18570
314,-15902,-12089,-15702,-21590,-21753,-16841,-16211
315,4983,-16062,2504,-15702,-21590,-21695,-9162
316,-16165,28791,-15965,17096,-15702,-21590,-21505
317,-12491,-16251,-11913,-16054,31944,-15702,-21590
318,-21652,-972,-16371,10104,-15946,-18488,-15702
319,-21590,-21748,11316,-16379,31352,-15934,-3896
320,-15702,-21590,-21653,25651,-16288,-15496,-16013
321,10697,-15702,-21590,-21703,-21710,-16351,7289
322,-15997,25033,-15702,-21590,-21661,-15311,-16239
323,22393,-16069,-25911,-15702,-21590,-21607,15153
324,-16235,-27015,-15883,-11575,-15702,-21590,-21715
325,-6608,-16256,-5511,-15958,3274,-15702,-21590
326,-21682,20528,-16198,13690,-16029,17866,-15702
327,-21590,-21642,-12753,-16165,32634,-15988,32458
328,-15702,-21590,-21698,-11474,-16361,-10374,-16004
329,-18230,-15702,-21590,-21707,1070,-16175,8315
330,-16020,-3382,-15702,-21590,-21691,-31955,-16233
331,25979,-16112,11723,-15702,-21590,-21690,-10964
332,-16156,-20101,-15900,26315,-15702,-21590,-21688
333,-5077,-16171,3196,-16081,-24117,-15702,-21590
334,-21697,-1238,-16199,23676,-15947,-10037,-15702
335,-21590,-21670,2858,-16371,-15748,-15993,4556
336,-15702,-21590,-21620,21801,-16296,9341,-15993
337,19148,-15702,-21590,-21676,-25816,-16323,29309
338,-15884,-31284,-15702,-21590,-21709,-5849,-16280
339,-16003,-16061,-15668,-15702,-21590,-21607,15143
340,-16196,8318,-15911,-564,-15702,-21590,-21610
341,29734,-16236,30590,-15984,14541,-15702,-21590
342,-21615,-19419,-16212,-11650,-15894,29133,-15702
343,-21590,-21759,-14300,-16209,13951,-16118,-21555
344,-15702,-21590,-21520,16932,-16296,-24705,-15936
345,-6963,-15702,-21590,-21744,18723,-16229,-2433
346,-16119,7886,-15702,-21590,-21735,-17630,-16205
347,10880,-16115,22734,-15702,-21590,-21612,-6623
348,-16355,21376,-15884,-27954,-15702,-21590,-21696
349,-7648,-16273,32128,-16101,-12594,-15702,-21590
350,-21727,-1249,-16238,-22912,-16123,2255,-15702
351,-21590,-21543,-3298,-16348,-11136,-15908,17103
352,-15702,-21590,-21717,4638,-16309,-3456,-16086
353,32463,-15702,-21590,-21618,17181,-16152,5505
354,-16077,-17713,-15702,-21590,-21605,15388,-16196
355,17281,-15945,-2865,-15702,-21590,-21555,23835
356,-16184,28289,-16082,12752,-15702,-21590,-21730
357,-30182,-16138,-29567,-15910,27600,-15702,-21590
358,-21582,-15335,-16223,-21119,-15965,-22064,-15702
359,-21590,-21712,-19176,-16381,-11391,-15943,-6960
360,-15702,-21590,-21735,-23785,-16312,-2175,-16077
361,8401,-15702,-21590,-21578,-27370,-16229,8578
362,-16096,24017,-15702,-21590,-21624,-18411,-16230
363,19074,-16002,-26159,-15702,-21590,-21754,-12012
364,-16254,31106,-16127,-11055,-15702,-21590,-21625
365,276,-16300,-23422,-15907,3538,-15702,-21590
366,-21634,7443,-16150,-13694,-15904,18642,-15702
367,-21590,-21560,-3055,-16202,-1406,-15908,-31534
368,-15702,-21590,-21758,785,-16378,10371,-16053
369,-16174,-15702,-21590,-21699,-1777,-16295,18051
370,-15894,-814,-15702,-21590,-21733,-12018,-16224
371,31107,-15952,14291,-15702,-21590,-21707,-1779
372,-16283,-25725,-16011,29395,-15702,-21590,-21624
373,-10484,-16233,-17277,-16001,-21037,-15702,-21590
374,-21535,-7157,-16378,-5501,-16056,-5677,-15702
375,-21590,-21592,-9974,-16217,7044,-15946,9172
376,-15702,-21590,-21560,-3831,-16201,16772,-16089
377,25044,-15702,-21590,-21725,5641,-16227,26244
378,-15923,-25132,-15702,-21590,-21644,16136,-16284
379,-29308,-15894,-10028,-15702,-21590,-21654,22279
380,-16368,-18556,-15936,5845,-15702,-21590,-21742
381,17158,-16166,-8828,-16013,21205,-15702,-21590
382,-21705,24325,-16293,1157,-15998,-28971,-15702
383,-21590,-21548,31236,-16175,10373,-16104,-13867
384,-15702,-21590,-21713,28675,-16377,20101,-15889
385,1750,-15702,-21590,-21541,23298,-16256,31621
386,-16054,17110,-15702,-21590,-21576,25089,-16317
387,-25467,-15969,-32554,-15702,-21590,-21673,11264
388,-16267,-15739,-15887,-17194,-15702,-21590,-21617
389,-2818,-16617,-4731,-15971,-1322,-15702,-21590
390,-21585,22013,-16583,4998,-16108,14807,-15702
391,-21590,-21582,-25861,-16590,10374,-15885,29911
392,-15702,-21590,-21515,-23303,-16608,19078,-15889
393,-19753,-15702,-21590,-21626,-27657,-16601,27782
394,-16056,-3625,-15702,-21590,-21529,21237,-16465
395,-28026,-15904,11736,-15702,-21590,-21597,-29197
396,-16463,-19322,-15928,27864,-15702,-21590,-21625
397,-12303,-16547,-7802,-15887,-22056,-15702,-21590
398,-21520,-17937,-16446,2439,-15906,-6184,-15702
399,-21590,-21564,19950,-16415,10887,-16095,10457
400,-15702,-21590,-21748,14316,-16508,19335,-16091
401,26585,-15702,-21590,-21700,-24854,-16550,30599
402,-16057,-23591,-15702,-21590,-21558,-25112,-16462
403,-23673,-15891,-8231,-15702,-21590,-21596,-19226
404,-16482,-12409,-15950,7386,-15702,-21590,-21695
405,-4124,-16495,-3449,-15979,23770,-15702,-21590
406,-21742,-19230,-16531,7560,-15933,-26150,-15702
407,-21590,-21586,18912,-16485,18056,-16030,-10278
408,-15702,-21590,-21565,28126,-16432,27016,-16049
409,5851,-15702,-21590,-21527,-15140,-16436,-26488
410,-16083,21723,-15702,-21590,-21757,4059,-16477
411,-16248,-15877,-28709,-15702,-21590,-21633,-4648
412,-16454,-8568,-16026,-12581,-15702,-21590,-21669
413,5847,-16437,2697,-15991,3804,-15702,-21590
414,-21718,3797,-16489,14473,-16033,19676,-15702
415,-21590,-21589,2515,-16472,23945,-15979,-30244
416,-15702,-21590,-21746,-9264,-16541,-31095,-16107
417,-13860,-15702,-21590,-21578,-12338,-16602,-19831
418,-15920,1501,-15702,-21590,-21586,-27188,-16475
419,-10103,-16079,17885,-15702,-21590,-21662,-16950
420,-16464,-631,-16071,-31523,-15702,-21590,-21591
421,-17720,-16487,9866,-16095,-14883,-15702,-21590
422,-21511,-21818,-16599,20106,-15923,1502,-15702
423,-21590,-21601,-19260,-16392,31370,-15929,17886
424,-15702,-21590,-21595,14274,-16483,-24182,-16046
425,-30754,-15702,-21590,-21609,-5185,-16556,-14454
426,-16098,-14626,-15702,-21590,-21616,-22083,-16431
427,-3446,-15977,1503,-15702,-21590,-21744,13243
428,-16618,6283,-16050,17631,-15702,-21590,-21510
429,-26696,-16433,16011,-16122,-31521,-15702,-21590
430,-21719,7862,-16569,27275,-16115,-15393,-15702
431,-21590,-21630,-20813,-16392,-26997,-16092,1248
432,-15702,-21590,-21724,32433,-16518,-15989,-15914
433,17376,-15702,-21590,-21630,26287,-16499,-7797
434,-15984,-32032,-15702,-21590,-21716,-17236,-16420
435,2956,-16079,-15904,-15702,-21590,-21674,9898
436,-16552,11916,-15920,-32,-15702,-21590,-21760
437,-9817,-16621,20364,-16038,16353,-15702,-21590
438,-21695,25509,-16512,28044,-15925,32225,-15702
439,-21590,-21589,-3678,-16605,-28532,-16091,-16671
440,-15702,-21590,-21642,27296,-16576,-20596,-16024
441,-543,-15702,-21590,-21759,31902,-16584,-9844
442,-15913,16098,-15702,-21590,-21696,5532,-16542
443,-372,-15935,32482,-15702,-21590,-21691,-7015
444,-16552,7565,-16102,-16414,-15702,-21590,-21523
445,-1129,-16386,15757,-16034,227,-15702,-21590
446,-21591,-6507,-16529,24717,-16015,16611,-15702
447,-21590,-21618,-19309,-16416,-32115,-16107,-32541
448,-15702,-21590,-21630,21649,-16606,-21107,-16027
449,-15645,-15702,-21590,-21528,-4722,-16596,-12147
450,-15886,1252,-15702,-21590,-21609,-18036,-16462
451,-1395,-15898,18148,-15702,-21590,-21685,25482
452,-16471,9102,-16010,-30492,-15702,-21590,-21745
453,-29305,-16470,18830,-15950,-13340,-15702,-21590
454,-21515,16773,-16505,29582,-15961,3301,-15702
455,-21590,-21747,20611,-16387,-27762,-16076,19941
456,-15702,-21590,-21633,3713,-16573,-18802,-16054
457,-28955,-15702,-21590,-21726,24956,-16565,-12146
458,-16083,-12059,-15702,-21590,-21640,22903,-16588
459,-4722,-16085,4838,-15702,-21590,-21527,29554
460,-16544,4239,-16093,21222,-15702,-21590,-21705
461,-25491,-16390,14479,-16100,-27418,-15702,-21590
462,-21706,9320,-16406,24463,-16064,-10266,-15702
463,-21590,-21661,3940,-16626,-30577,-16059,6887
464,-15702,-21590,-21690,8032,-16394,-23409,-15925
465,23783,-15702,-21590,-21656,-17060,-16439,-14705
466,-16012,-24345,-15702,-21590,-21567,3161,-16540
467,-6257,-15914,-6937,-15702,-21590,-21686,10836
468,-16593,3984,-16099,9960,-15702,-21590,-21578
469,24655,-16617,13200,-16029,26600,-15702,-21590
470,-21584,26443,-16587,22672,-16007,-22296,-15702
471,-21590,-21726,-31418,-16474,31376,-16059,-4888
472,-15702,-21590,-21509,-31167,-16461,-24688,-16106
473,12521,-15702,-21590,-21635,-26309,-16432,-14960
474,-16005,29417,-15702,-21590,-21529,-17867,-16567
475,-4208,-16065,-18967,-15702,-21590,-21677,2096
476,-16469,4753,-15874,-2071,-15702,-21590,-21563
477,-30678,-16524,14481,-16037,14570,-15702,-21590
478,-21574,-21469,-16480,22929,-16043,31466,-15702
479,-21590,-21525,32543,-16583,-31599,-16023,-16662
480,-15702,-21590,-21706,-27622,-16405,-22895,-16043
481,1003,-15702,-21590,-21732,-5612,-16539,-14191
482,-16087,18411,-15702,-21590,-21702,-21490,-16559
483,-5231,-16098,-29717,-15702,-21590,-21631,-3063
484,-16487,4498,-15992,-12565,-15702,-21590,-21704
485,6661,-16543,13714,-16056,4844,-15702,-21590
486,-21703,-16896,-16546,22162,-16072,21740,-15702
487,-21590,-21545,1784,-16669,29330,-16122,-26132
488,-15702,-21590,-21755,-16916,-16810,-27502,-15968
489,-8724,-15702,-21590,-21548,-11552,-16755,-19822
490,-16106,8685,-15702,-21590,-21682,14548,-16731
491,-11118,-16054,25837,-15702,-21590,-21573,27081
492,-16712,-3438,-16008,-22291,-15702,-21590,-21749
493,28607,-16655,4499,-16004,-4115,-15702,-21590
494,-21573,18613,-16667,12947,-15986,13550,-15702
495,-21590,-21516,-31574,-16819,20627,-15996,30702
496,-15702,-21590,-21724,-2913,-16725,31379,-15992
497,-17170,-15702,-21590,-21708,9365,-16830,-24173
498,-16091,-18,-15702,-21590,-21645,-31094,-16702
499,-17005,-16031,17391,-15702,-21590,-21570,25985
500,-16872,-10349,-15885,-30481,-15702,-21590,-21751
501,17772,-16668,-1901,-16109,-12817,-15702,-21590
502,-21739,13912,-16837,6036,-15922,4848,-15702
503,-21590,-21699,-14269,-16749,14484,-15926,22000
504,-15702,-21590,-21566,13359,-16862,21140,-15968
505,-25616,-15702,-21590,-21700,26649,-16800,31124
506,-15941,-7952,-15702,-21590,-21581,-22774,-16885
507,-25452,-15895,9713,-15702,-21590,-21579,25324
508,-17146,-15980,-15950,27121,-15702,-21590,-21760
509,14272,-17035,-7788,-15999,-20495,-15702,-21590
510,-21699,-8288,-16957,1685,-15954,-2831,-15702
511,-21590,-21698,-3490,-16937,12949,-15978,15090
512,-15702,-21590,-21664,-15102,-17058,20629,-16049
513,32498,-15702,-21590,-21596,5991,-17322,29589
514,-16091,-15886,-15702,-21590,-21557,7795,15278
515,-28523,-15926,1779,-15702,-21590,-21570,-21822
516,15462,-21355,-16063,19699,-15702,-21590,-21532
517,25672,15772,-11883,-16059,-28429,-15702,-21590
518,-21506,10640,15835,-1643,-16028,-11021,-15702
519,-21590,-21660,-17989,15842,7062,-16110,6900
520,-15702,-21590,-21714,-30744,15752,16278,-15955
521,24564,-15702,-21590,-21757,26629,16087,23446
522,-16124,-22284,-15702,-21590,-21759,-23268,15897
523,-32106,-15964,-4364,-15702,-21590,-21581,53
524,15885,-21610,-15916,13813,-15702,-21590,-21545
525,30287,15939,-11626,-16028,31733,-15702,-21590
526,-21590,7780,15932,-3434,-16094,-15883,-15702
527,-21590,-21720,-5766,15978,5783,-16093,2806
528,-15702,-21590,-21626,28040,16122,14999,-15895
529,20726,-15702,-21590,-21730,-13936,16093,22679
530,-16080,-26634,-15702,-21590,-21515,7065,16055
531,31639,-16036,-8202,-15702,-21590,-21610,-4701
532,16008,-25193,-15946,10231,-15702,-21590,-21752
533,-12371,15976,-19305,-16081,28407,-15702,-21590
534,-21572,-25928,15925,-12905,-16020,-19465,-15702
535,-21590,-21668,-3902,15994,-4969,-15895,-1801
536,-15702,-21590,-21582,16334,16047,5528,-15921
537,16120,-15702,-21590,-21757,11482,15963,12440
538,-16104,-30472,-15702,-21590,-21521,7140,15896
539,18328,-15914,-12040,-15702,-21590,-21510,15855
540,15889,27032,-15971,6137,-15702,-21590,-21744
541,-22790,15902,-30056,-15914,24313,-15702,-21590
542,-21673,-30206,16185,-22888,-15895,-22791,-15702
543,-21590,-21715,-31737,16373,-14952,-15961,-4359
544,-15702,-21590,-21753,26381,16382,-7016,-15985
545,14074,-15702,-21590,-21606,22035,16200,153
546,-16025,32506,-15702,-21590,-21528,-14824,16345
547,8089,-15885,-14854,-15702,-21590,-21647,-13027
548,16303,15001,-16124,3835,-15702,-21590,-21560
549,-13277,16228,23449,-15882,21755,-15702,-21590
550,-21727,-28631,16351,-32615,-15875,-24837,-15702
551,-21590,-21633,19247,16158,-25703,-16064,-5637
552,-15702,-21590,-21760,-4556,16196,-19303,-16103
553,12796,-15702,-21590,-21748,-5319,16138,-11111
554,-16076,31228,-15702,-21590,-21686,16959,16375
555,-2151,-15971,-15876,-15702,-21590,-21669,8261
556,16294,6810,-15988,2557,-15702,-21590,-21653
557,14411,16151,14234,-15885,20989,-15702,-21590
558,-21754,-16304,16347,21914,-15882,-26371,-15702
559,-21590,-21665,-18089,16324,28058,-15991,-7683
560,-15702,-21590,-21534,-19106,16156,-28006,-15886
561,10750,-15702,-21590,-21738,-16797,16374,-20582
562,-16053,29950,-15702,-21590,-21589,-23959,16242
563,-13926,-16112,-16898,-15702,-21590,-21750,23919
564,16376,-4454,-15999,1535,-15702,-21590,-21592
565,-28555,16260,3227,-15938,20479,-15702,-21590
566,-21553,-16005,16189,9883,-15875,-26113,-15702
567,-21590,-21579,23681,16172,19867,-15933,-7169
568,-15702,-21590,-21665,1412,16286,29595,-16069
569,5632,-15446,-21590,-21621,-4986,16147,-27237
570,-16022,14848,-15446,-21590,-21514,8586,16251
571,-18533,-16016,24320,-15446,-21590,-21550,7053
572,16339,-12389,-16123,-31744,-15446,-21590,-21745
573,2960,16374,-7013,-16053,-22272,-15446,-21590
574,-21633,-7790,16247,3228,-16011,-13056,-15446
575,-21590,-21699,-2411,16203,11676,-16017,-3840
576,-15446,-21590,-21562,3993,16268,19612,-16065
577,5633,-15446,-21590,-21516,-31589,16238,26012
578,-15981,15361,-15446,-21590,-21650,26526,16179
579,-30308,-16059,24833,-15446,-21590,-21590,11425
580,16368,-22372,-16058,-30975,-15446,-21590,-21668
581,-6749,16265,-15460,-15984,-21503,-15446,-21590
582,-21671,-30554,16335,-6756,-16042,-12031,-15446
583,-21590,-21622,-12887,16151,1181,-15936,-2303
584,-15446,-21590,-21597,3501,16251,8349,-15959
585,7170,-15446,-21590,-21626,8112,16287,15005
586,-15907,16642,-15446,-21590,-21539,-22862,16260
587,21917,-16013,26114,-15446,-21590,-21564,1973
588,16358,29085,-15924,-29694,-15446,-21590,-21716
589,4024,16317,-28003,-15943,-19966,-15446,-21590
590,-21678,-3910,16343,-21091,-15954,-10494,-15446
591,-21590,-21524,-13123,16370,-13411,-15968,-766
592,-15446,-21590,-21718,-15936,16317,-8035,-15969
593,8707,-15446,-21590,-21728,4291,16273,-99
594,-16100,18435,-15446,-21590,-21759,11718,16312
595,8606,-15953,28163,-15446,-21590,-21544,20169
596,16210,15518,-15885,-27901,-15446,-21590,-21601
597,25292,16372,22174,-15924,-18173,-15446,-21590
598,-21580,24015,16209,29598,-16110,-7933,-15446
599,-21590,-21666,-31022,16297,-28514,-16017,1796
600,-15446,-21590,-21605,-29739,16131,-19554,-15963
601,11524,-15446,-21590,-21710,-23336,16250,-10850
602,-16076,21508,-15446,-21590,-21631,11227,16364
603,-4194,-15914,31236,-15446,-21590,-21726,19934
604,16130,4255,-16114,-24316,-15446,-21590,-21654
605,-26399,16356,10911,-15944,-14844,-15446,-21590
606,-21690,-26908,16156,18335,-15971,-5116,-15446
607,-21590,-21671,4840,16330,25503,-16074,4613
608,-15446,-21590,-21543,9451,16345,-32353,-16031
609,14085,-15446,-21590,-21575,-531,16352,-24417
610,-16039,23813,-15446,-21590,-21710,20721,16270
611,-18273,-16070,-31995,-15446,-21590,-21698,22004
612,16189,-13153,-16122,-22523,-15446,-21590,-21573
613,22263,16365,-6497,-16094,-12795,-15446,-21590
614,-21523,29434,16309,-609,-16006,-3067,-15446
615,-21590,-21751,-5379,16254,4768,-15907,6918
616,-15446,-21590,-21722,-14336,16437,10656,-15902
617,16902,-15446,-21590,-21592,30978,16523,17312
618,-15969,26886,-15446,-21590,-21642,13316,16466
619,26528,-16009,-28410,-15446,-21590,-21532,-14331
620,16483,-31328,-15948,-18682,-15446,-21590,-21653
621,-32249,16425,-24928,-16071,-8442,-15446,-21590
622,-21756,23049,16454,-17504,-15947,1543,-15446
623,-21590,-21551,4875,16419,-12128,-16107,11527
624,-15446,-21590,-21644,-19188,16638,-7264,-15953
625,21511,-15446,-21590,-21535,14862,16611,1185
626,-15879,31239,-15446,-21590,-21753,-18929,16569
627,7329,-15880,-24313,-15446,-21590,-21705,1809
628,16427,14753,-15971,-14329,-15446,-21590,-21679
629,24338,16619,22177,-16016,-4345,-15446,-21590
630,-21570,4116,16392,29345,-15879,5640,-15446
631,-21590,-21653,-13803,16489,-27743,-16123,15880
632,-15446,-21590,-21724,19735,16638,-21855,-15894
633,25864,-15446,-21590,-21645,-12520,16494,-15967
634,-16062,-29432,-15446,-21590,-21623,25370,16547
635,-10335,-16043,-19192,-15446,-21590,-21599,11036
636,16610,-5215,-15876,-9208,-15446,-21590,-21638
637,-16355,16486,162,-16028,1033,-15446,-21590
638,-21623,-29409,16491,5538,-15905,11017,-15446
639,-21590,-21677,17441,16474,10402,-16091,21257
640,-15446,-21590,-21534,-14046,16446,16290,-15891
641,31241,-15446,-21590,-21697,25380,16427,24482
642,-15986,-24055,-15446,-21590,-21637,1318,16563
643,30626,-15989,-14071,-15446,-21590,-21697,-23001
644,16534,-25694,-16091,-3831,-15446,-21590,-21514
645,11561,16594,-20830,-16017,6154,-15446,-21590
646,-21598,-28886,16547,-14686,-16088,16394,-15446
647,-21590,-21681,6188,16505,-6750,-15996,26634
648,-15446,-21590,-21702,-17107,16608,-862,-16081
649,-28406,-15446,-21590,-21657,12847,16623,3235
650,-16110,-17910,-15446,-21590,-21738,-7632,16486
651,10403,-15924,-7670,-15446,-21590,-21565,14898
652,16402,14755,-15960,2827,-15446,-21590,-21689
653,-4813,16613,19107,-15919,13067,-15446,-21590
654,-21598,28469,16526,23203,-15981,23563,-15446
655,-21590,-21743,4663,16502,28067,-15937,-31733
656,-15446,-21590,-21568,-19400,16464,-31069,-16068
657,-21493,-15446,-21590,-21664,26938,16464,-26205
658,-15961,-11253,-15446,-21590,-21704,-18117,16594
659,-21853,-15908,-757,-15446,-21590,-21685,19517
660,16597,-17757,-15929,9996,-15446,-21590,-21757
661,-12994,16498,-11101,-16086,20492,-15446,-21590
662,-21730,29504,16397,-3421,-16010,30988,-15446
663,-21590,-21673,-1471,16573,3492,-15957,-24052
664,-15446,-21590,-21760,-23741,16493,8612,-15912
665,-14068,-15446,-21590,-21574,24901,16575,11172
666,-15915,-3828,-15446,-21590,-21703,19783,16472
667,16548,-16091,6925,-15446,-21590,-21747,-2488
668,16393,22180,-15899,17165,-15446,-21590,-21643
669,32330,16601,26788,-16013,28173,-15446,-21590
670,-21525,-16821,16451,31908,-16071,-26611,-15446
671,-21590,-21588,8269,16543,-27740,-16043,-16371
672,-15446,-21590,-21687,-4530,16582,-20572,-16052
673,-6131,-15446,-21590,-21633,26448,16440,-16988
674,-16119,4622,-15446,-21590,-21727,15186,16495
675,-10588,-16021,15118,-15446,-21590,-21748,-10669
676,16522,-4700,-15890,25358,-15446,-21590,-21552
677,31061,16474,1701,-16015,-29170,-15446,-21590
678,-21696,-5034,16595,5285,-16007,-18418,-15446
679,-21590,-21679,24152,16483,10405,-15977,-7666
680,-15446,-21590,-21734,12122,16407,16037,-16068
681,3343,-15446,-21590,-21707,-5029,16443,22181
682,-15925,13839,-15446,-21590,-21547,-28067,16603
683,28837,-16021,24591,-15446,-21590,-21729,31327
684,16413,31653,-16023,-30449,-15446,-21590,-21740
685,7777,16613,-26971,-15929,-19953,-15446,-21590
686,-21539,611,16486,-21339,-15920,-8945,-15446
687,-21590,-21608,-3228,16385,-17499,-16061,1808
688,-15446,-21590,-21564,-16026,16477,-10587,-16042
689,12560,-15446,-21590,-21583,-30104,16494,-5211
690,-16095,23312,-15446,-21590,-21526,2666,16455
691,-603,-15880,-31984,-15446,-21590,-21525,-7829
692,16409,4262,-16049,-20976,-15446,-21590,-21569
693,-25235,16446,9382,-15975,-10480,-15446,-21590
694,-21599,25967,16482,16806,-15898,273,-15446
695,-21590,-21674,12145,16556,23974,-15957,11025
696,-15446,-21590,-21575,7283,16448,28070,-16032
697,21777,-15446,-21590,-21737,-7308,16385,31910
698,-15891,32529,-15446,-21590,-21630,-25482,16408
699,-28762,-15993,-22255,-15446,-21590,-21726,19064
700,16569,-24666,-15876,-11503,-15446,-21590,-21698
701,9082,16557,-20570,-15997,18,-15446,-21590
702,-21735,18044,16590,-16218,-15951,10770,-15446
703,-21590,-21535,-14211,16445,-10842,-15899,22034
704,-15446,-21590,-21704,25983,16498,-4442,-15930
705,-32494,-15446,-21590,-21524,-24192,16540,2471
706,-15902,-21998,-15446,-21590,-21711,31617,16561
707,8615,-15893,-11246,-15446,-21590,-21570,21890
708,16601,14759,-15934,-238,-15446,-21590,-21588
709,14211,16508,20903,-16020,10515,-15446,-21590
710,-21668,8068,16605,26023,-15916,21267,-15446
711,-21590,-21706,-1148,16508,31399,-16111,32275
712,-15446,-21590,-21717,-7547,16550,-30041,-16122
713,-22509,-15446,-21590,-21661,-16762,16542,-25689
714,-15983,-11757,-15446,-21590,-21755,32135,16514
715,-22873,-15969,-749,-15446,-21590,-21551,23432
716,16574,-17241,-16087,10260,-15446,-21590,-21654
717,17801,16407,-12377,-16090,21524,-15446,-21590
718,-21671,5770,16487,-9049,-15892,32532,-15446
719,-21590,-21564,1675,16484,-2649,-15884,-21996
720,-15446,-21590,-21528,-11381,16496,-345,-15898
721,-10988,-15446,-21590,-21682,-21108,16393,3496
722,-16111,277,-15446,-21590,-21582,-29043,16447
723,8616,-16066,11541,-15446,-21590,-21631,-32114
724,16631,13992,-15942,22549,-15446,-21590,-21716
725,23951,16549,17320,-15988,-31723,-15446,-21590
726,-21634,18320,16461,23208,-16112,-20459,-15446
727,-21590,-21687,8337,16472,27048,-15876,-9707
728,-15446,-21590,-21556,-1647,16587,29608,-16003
729,1302,-15446,-21590,-21542,-5486,16593,32680
730,-16040,12310,-15446,-21590,-21537,-4461,16547
731,-27480,-15884,23574,-15446,-21590,-21648,-25964
732,16590,-25176,-16085,-30698,-15446,-21590,-21614
733,23957,16639,-19032,-15902,-19690,-15446,-21590
734,-21597,24470,16528,-15704,-16076,-8170,-15446
735,-21590,-21635,15255,16434,-12888,-15974,3095
736,-15446,-21590,-21730,1176,16468,-8536,-16102
737,14359,-15446,-21590,-21628,-7272,16449,-2904
738,-15893,25367,-15446,-21590,-21745,-18023,16421
739,1705,-15952,-28905,-15446,-21590,-21548,-31334
740,16447,3497,-16069,-17641,-15446,-21590,-21559
741,17563,16560,5033,-16004,-6633,-15446,-21590
742,-21681,1948,16476,8361,-16025,4632,-15446
743,-21590,-21648,-5732,16567,12713,-15987,15896
744,-15446,-21590,-21709,-14435,16559,16553,-15897
745,27160,-15446,-21590,-21654,-14690,16408,20905
746,-16076,-26856,-15446,-21590,-21713,-26721,16542
747,25001,-16104,-15592,-15446,-21590,-21536,25504
748,16446,29353,-15987,-4328,-15446,-21590,-21736
749,15265,16586,32169,-16041,7193,-15446,-21590
750,-21651,5794,16403,-29783,-15944,18457,-15446
751,-21590,-21514,-94,16439,-24407,-16065,29977
752,-15446,-21590,-21557,-9309,16590,-22103,-16062
753,-24039,-15446,-21590,-21530,-14940,16454,-18519
754,-16077,-12519,-15446,-21590,-21714,-16731,16530
755,-14935,-16094,-999,-15446,-21590,-21527,-25178
756,16583,-10583,-16108,10522,-15446,-21590,-21717
757,-24921,16400,-5719,-16042,22042,-15446,-21590
758,-21515,31912,16410,-87,-16092,-31974,-15446
759,-21590,-21703,25257,16598,1450,-15955,-20710
760,-15446,-21590,-21599,19370,16614,5034,-16115
761,-9190,-15446,-21590,-21643,8619,16555,8874
762,-16068,2587,-15446,-21590,-21563,7340,16391
763,11946,-16067,13851,-15446,-21590,-21647,2477
764,16521,16298,-15948,25115,-15446,-21590,-21519
765,1454,16559,21418,-15981,-29157,-15446,-21590
766,-21675,-5970,16520,24746,-15963,-17637,-15446
767,-21590,-21593,-15185,16402,28586,-16096,-5861
768,-15446,-21590,-21523,-23120,16449,29866,-15979
769,5660,-15446,-21590,-21675,31409,16571,31146
770,-16074,17180,-15446,-21590,-21563,28338,16509
771,-31574,-15924,28700,-15446,-21590,-21537,17587
772,16639,-31062,-16118,-25060,-15446,-21590,-21582
773,12724,16470,-27734,-16024,-13540,-15446,-21590
774,-21576,10421,16453,-25686,-15901,-2020,-15446
775,-21590,-21606,2230,16581,-23126,-15972,10013
776,-15446,-21590,-21645,-2122,16557,-18774,-16003
777,21533,-15446,-21590,-21743,-2121,16417,-13910
778,-15961,-32227,-15446,-21590,-21660,-8776,16586
779,-10838,-16004,-20707,-15446,-21590,-21629,-21575
780,16549,-8534,-16020,-9187,-15446,-21590,-21758
781,-27718,16551,-7254,-15909,2590,-15446,-21590
782,-21707,24763,16569,-3926,-15992,14366,-15446
783,-21590,-21594,18364,16630,-854,-15886,25886
784,-15446,-21590,-21540,14525,16461,939,-15909
785,-27874,-15446,-21590,-21564,7614,16537,5547
786,-16125,-16098,-15446,-21590,-21609,1471,16410
787,10411,-16118,-4578,-15446,-21590,-21517,-4161
788,16577,15787,-16107,7199,-15446,-21590,-21718
789,-11584,16438,18859,-15909,18719,-15446,-21590
790,-21515,-21567,16521,21419,-15933,30495,-15446
791,-21590,-21721,-29502,16503,22955,-15878,-23009
792,-15446,-21590,-21534,31171,16449,27307,-15900
793,-11233,-15446,-21590,-21665,28868,16551,29867
794,-16097,800,-15446,-21590,-21686,21957,16449
795,-31061,-15900,12576,-15446,-21590,-21730,17350
796,16632,-27733,-16010,24608,-15446,-21590,-21709
797,6599,16468,-24661,-16107,-28896,-15446,-21590
798,-21686,-57,16418,-23893,-15930,-17120,-15446
799,-21590,-21541,3273,16566,-22613,-16100,-4832
800,-15446,-21590,-21512,-823,16559,-20309,-16082
801,7201,-15446,-21590,-21673,3275,16626,-19285
802,-15961,18977,-15446,-21590,-21563,-3381,16598
803,-17237,-16110,31265,-15446,-21590,-21541,-9524
804,16433,-13653,-15885,-22495,-15446,-21590,-21612
805,-17459,16606,-12373,-16009,-10463,-15446,-21590
806,-21511,-27954,16430,-10837,-16013,1826,-15446
807,-21590,-21727,31951,16552,-9557,-15986,14114
808,-15446,-21590,-21694,31952,16445,-5205,-15909
809,26146,-15446,-21590,-21580,24785,16426,-4181
810,-16120,-26846,-15446,-21590,-21628,7378,16547
811,-3413,-16125,-14558,-15446,-21590,-21549,979
812,16465,-3669,-15975,-2526,-15446,-21590,-21696
813,-4653,16584,-4437,-16000,9507,-15446,-21590
814,-21512,-10028,16615,-2389,-15967,21795,-15446
815,-21590,-21543,-20779,16525,-597,-16052,-31709
816,-15446,-21590,-21655,-31018,16583,940,-15951
817,-19677,-15446,-21590,-21719,32471,16587,4268
818,-16095,-7645,-15446,-21590,-21620,29656,16613
819,6572,-15879,4132,-15446,-21590,-21703,26073
820,16615,8620,-15969,16420,-15446,-21590,-21725
821,21466,16624,9900,-16110,28708,-15446,-21590
822,-21543,14555,16404,11692,-16096,-24540,-15446
823,-21590,-21699,10972,16492,14252,-15951,-12508
824,-15446,-21590,-21541,11485,16636,16556,-15949
825,-220,-15446,-21590,-21537,14046,16514,17324
826,-16035,12581,-15446,-21590,-21670,10975,16501
827,19116,-15942,24869,-15446,-21590,-21628,15328
828,16634,20396,-15902,-28379,-15446,-21590,-21517
829,9441,16529,21164,-16106,-16091,-15446,-21590
830,-21658,8674,16485,22700,-15965,-4059,-15446
831,-21590,-21599,12515,16484,22956,-15958,8486
832,-15446,-21590,-21601,8164,16449,23212,-16089
833,21030,-15446,-21590,-21564,1765,16556,23724
834,-16078,-32218,-15446,-21590,-21645,-6427,16526
835,22956,-16073,-19674,-15446,-21590,-21515,-12058
836,16630,24236,-16099,-7130,-15446,-21590,-21529
837,-15897,16572,25772,-15986,5415,-15446,-21590
838,-21731,-24600,16437,28588,-16036,17959,-15446
839,-21590,-21509,30953,16443,30124,-15911,30247
840,-15446,-21590,-21587,18922,16536,32172,-16051
841,-22745,-15446,-21590,-21515,15339,16539,31148
842,-16048,-10201,-15446,-21590,-21591,16876,16523
843,31148,-16050,2344,-15446,-21590,-21571,13037
844,16531,32172,-16128,14888,-15446,-21590,-21625
845,7918,16467,30124,-15953,26920,-15446,-21590
846,-21682,1775,16401,29868,-15994,-25816,-15446
847,-21590,-21636,6384,16396,29356,-16045,-12760
848,-15446,-21590,-21621,5873,16572,29100,-15918
849,41,-15446,-21590,-21641,4594,16385,31148
850,-15977,12841,-15446,-21590,-21635,2803,16589
851,30892,-15905,25129,-15446,-21590,-21512,5620
852,16614,32172,-16099,-27607,-15446,-21590,-21618
853,11765,16471,-31828,-16011,-15063,-15446,-21590
854,-21524,17654,16497,-31316,-15887,-2519,-15446
855,-21590,-21665,25079,16574,32428,-15885,10282
856,-15446,-21590,-21726,21496,16553,-31828,-15997
857,22826,-15446,-21590,-21671,13305,16528,-30548
858,-15916,-30166,-15446,-21590,-21753,22778,16529
859,-28756,-16029,-17366,-15446,-21590,-21645,27131
860,16629,-27476,-16060,-4822,-15446,-21590,-21714
861,12284,16416,-28756,-15996,7979,-15446,-21590
862,-21570,11773,16455,-28500,-16013,20779,-15446
863,-21590,-21751,9214,16416,-27220,-15936,-31957
864,-15446,-21590,-21748,11775,16620,-26964,-16042
865,-19157,-15446,-21590,-21701,7424,16689,-26452
866,-15881,-6613,-15446,-21590,-21642,-27392,16838
867,-28500,-16122,6444,-15446,-21590,-21714,-2560
868,16755,-27988,-16045,19244,-15446,-21590,-21545
869,27905,16781,-27732,-15935,32044,-15446,-21590
870,-21737,-3839,16727,-26452,-16049,-20436,-15446
871,-21590,-21712,29186,16746,-26196,-16108,-7380
872,-15446,-21590,-21571,-8446,16728,-26708,-15914
873,5421,-15446,-21590,-21696,18947,16679,-29524
874,-16020,18477,-15446,-21590,-21615,-14589,16670
875,-27988,-16019,31277,-15446,-21590,-21534,16132
876,16867,-29012,-16082,-20947,-15446,-21590,-21614
877,-15356,16855,-31316,-16086,-7891,-15446,-21590
878,-21740,19461,16736,-31316,-15988,5166,-15446
879,-21590,-21561,-11003,16649,-30548,-15878,18222
880,-15446,-21590,-21562,19462,16729,-32596,-16013
881,31278,-15446,-21590,-21668,-16890,16668,-31572
882,-15889,-21202,-15446,-21590,-21721,14855,16869
883,-32340,-16033,-8146,-15446,-21590,-21742,-21497
884,16781,30636,-15901,4911,-15446,-21590,-21664
885,8712,16779,28844,-15988,17967,-15446,-21590
886,-21614,-22008,16687,26540,-15888,31023,-15446
887,-21590,-21569,10505,16794,24492,-16027,-21201
888,-15446,-21590,-21734,-22775,16780,23212,-15951
889,-8145,-15446,-21590,-21709,12042,16837,23468
890,-15973,4912,-15446,-21590,-21544,-23286,16854
891,21932,-15968,17968,-15446,-21590,-21643,5387
892,16836,19884,-16050,31024,-15446,-21590,-21741
893,-29941,16657,20396,-15918,-21456,-15446,-21590
894,-21610,1292,16863,19116,-15941,-8400,-15446
895,-21590,-21736,32524,16678,17836,-16095,5169
896,-15446,-21590,-21665,-1780,16650,16812,-15974
897,18481,-15446,-21590,-21570,30221,16693,15020
898,-16075,31537,-15446,-21590,-21572,-4339,16742
899,11180,-15976,-20943,-15446,-21590,-21656,26126
